time[ms],R1[ohm]
2,9251.56
1004,9179.49
2008,9143.66
3010,9036.98
4014,8931.49
5016,8724.02
6020,8966.52
7022,8931.49
8026,8827.18
9028,8896.59
10032,9107.97
11034,8827.18
12038,8827.18
13040,8792.67
14044,8689.89
15046,8521.09
16050,8689.89
17052,8622.00
18056,8454.44
19058,8724.02
20062,8454.44
21064,8064.45
22068,7906.82
23070,7690.77
24074,7660.33
25076,7274.08
26080,7479.91
27082,7450.21
28086,7361.69
29088,7332.39
30092,7450.21
31094,7044.76
32098,7216.17
33101,7044.77
34104,7016.53
35107,6794.03
36110,7158.65
37113,6876.78
38116,6876.78
39119,7101.52
40122,6876.78
41125,6849.10
42128,6766.63
43131,6821.52
44134,6657.93
45137,6712.10
46140,6657.93
47143,6821.52
48146,6550.65
49149,6497.53
50152,6684.97
51155,6794.03
52158,6550.65
53161,6550.65
54164,6211.44
55168,6444.76
56170,6471.10
57174,6471.10
58176,6314.30
59180,6211.43
60183,6444.76
61186,6418.50
62189,6497.53
63192,6794.03
64195,6288.46
65198,6392.32
66201,6418.50
67204,6340.22
68207,6712.11
69210,6684.98
70213,6366.23
71216,6444.76
72219,6340.22
73222,6340.22
74225,6185.92
75228,6314.30
76231,6684.98
77234,6034.54
78237,6340.22
79240,6288.46
80243,6160.49
81246,6237.03
82249,6444.76
83252,6160.49
84255,6288.46
85258,6288.46
86261,6288.46
87265,6160.49
88267,6288.46
89271,6211.44
90273,6185.92
91277,6211.43
92279,5984.72
93283,6160.49
94285,6160.49
95289,6185.92
96291,5935.20
97295,5861.51
98297,6211.44
99301,6160.49
100303,6160.49
101307,6392.32
102309,6135.14
103313,6160.49
104316,6109.87
105319,5886.00
106322,6185.92
107325,6262.70
108328,5812.77
109331,6034.54
110334,6160.49
111337,6109.87
112340,6366.23
113344,6084.68
114347,6185.92
115350,6211.43
116353,6185.92
117356,6135.14
118359,6524.05
119362,6237.03
120366,6109.87
121368,6009.59
122372,6059.57
123374,6109.87
124378,6034.54
125380,6084.68
126384,6135.14
127386,6109.87
128390,6109.87
129393,6084.68
130396,5861.51
131399,6084.68
132402,6109.87
133405,6211.43
134408,6135.14
135411,6084.68
136415,6262.70
137417,5984.72
138421,6109.87
139423,5861.51
140427,6034.54
141429,6084.68
142433,5861.51
143435,6009.59
144439,6109.87
145442,5886.00
146445,6109.87
147448,6084.68
148451,5764.33
149454,6009.59
150457,6034.54
151460,5886.00
152464,6059.57
153466,6084.68
154470,6059.57
155472,6009.59
156476,6059.57
157478,6340.23
158482,5837.10
159485,6084.68
160488,6034.54
161491,6237.03
162494,6009.59
163497,6009.59
164500,6084.68
165504,6366.23
166506,6009.59
167510,6034.54
168513,6034.54
169516,6211.44
170519,6109.87
171522,6009.59
172525,6084.68
173528,6185.92
174531,6237.03
175535,6059.57
176537,6059.57
177541,6366.23
178543,6237.03
179547,6009.59
180549,6034.54
181553,6237.03
182555,6109.87
183559,6059.57
184562,6034.54
185565,5716.18
186568,6009.59
187571,6034.54
188574,5716.18
189577,5959.92
190580,5984.72
191584,6034.54
192586,5764.33
193590,6059.57
194592,6034.54
195596,5959.92
196598,6009.59
197602,6034.54
198605,5959.92
199608,6009.59
200611,5935.20
201614,6211.43
202617,6034.54
203620,6009.59
204623,5935.20
205626,5910.56
206629,6314.30
207633,5935.20
208635,6211.44
209639,6084.68
210641,6009.59
211645,5984.72
212647,6059.57
213651,5935.20
214654,5984.72
215657,6084.68
216660,6059.57
217663,5984.72
218667,5935.20
219669,6034.54
220673,5886.00
221675,5984.72
222679,5984.72
223682,6009.59
224685,5984.72
225688,6314.30
226691,6034.54
227694,6009.59
228697,5837.10
229700,5935.20
230704,6314.30
231706,5935.20
232710,5959.92
233712,5812.77
234716,5959.92
235718,5959.92
236722,5812.77
237724,6009.59
238728,5959.92
239731,6059.57
240734,5959.92
241737,5959.92
242740,6211.43
243743,5910.56
244746,6059.57
245749,5788.51
246753,6034.54
247755,5861.51
248759,5935.20
249761,5837.10
250765,5910.56
251767,5959.92
252771,6160.49
253774,5837.10
254777,6059.57
255780,5886.00
256783,5935.20
257786,5935.20
258789,5740.22
259792,5935.20
260795,5959.92
261798,5959.92
262802,5959.92
263804,5935.20
264808,6211.44
265810,5886.00
266814,6009.59
267816,6084.68
268820,5935.20
269824,5910.56
270826,5984.72
271830,5935.20
272832,6135.14
273836,6009.59
274838,5910.56
275842,6262.70
276844,5886.00
277848,5959.92
278851,6059.57
279854,5910.56
280857,5984.72
281860,6160.49
282863,5886.00
283866,5910.56
284869,6034.54
285873,5935.20
286875,5910.56
287879,5959.92
288881,5984.72
289885,5788.51
290887,6135.14
291891,6262.70
292893,5935.20
293897,5935.20
294900,6084.68
295903,5910.56
296906,5935.20
297909,5692.22
298912,5861.51
299915,5959.92
300918,5910.56
301922,6288.46
302924,5886.00
303928,5886.00
304930,6084.68
305934,5935.20
306936,5910.56
307940,5886.00
308942,6237.03
309946,5886.00
310949,5910.56
311952,5959.92
312955,5910.56
313958,5984.72
314961,5935.20
315964,5886.00
316967,5935.20
317971,5959.92
318973,5764.33
319977,6314.30
320979,5837.10
321983,5935.20
322985,5886.00
323989,5910.56
324992,5812.77
325995,6135.14
326999,5764.33
328001,5984.72
329005,5910.56
330007,5935.20
331011,5910.56
332013,5861.51
333017,6034.54
334020,5620.78
335023,5886.00
336026,5886.00
337029,5886.00
338032,5886.00
339035,5959.92
340038,6135.14
341041,6109.87
342044,5910.56
343048,5886.00
344050,5984.72
345054,5692.22
346056,5935.20
347060,5886.00
348062,5910.56
349066,6160.49
350069,5935.20
351072,5861.51
352075,5935.20
353078,5984.72
354081,5935.20
355084,5959.92
356087,5861.51
357091,5984.72
358093,5984.72
359097,6135.14
360099,5886.00
361103,5910.56
362105,5886.00
363109,5716.18
364111,5910.56
365115,6009.59
366118,5812.77
367121,5935.20
368124,5861.51
369127,5861.51
370130,5764.33
371133,5812.77
372136,5935.20
373140,5910.56
374142,6034.54
375146,5910.56
376148,5910.56
377152,5861.51
378155,6160.49
379158,5764.33
380161,5886.00
381164,5935.20
382168,5837.10
383170,6059.57
384174,5886.00
385176,5910.56
386180,5861.51
387182,5788.51
388186,5716.18
389189,5886.00
390192,5886.00
391195,5935.20
392198,6185.92
393201,6084.68
394204,5886.00
395207,5886.00
396211,5910.56
397213,5573.52
398217,5935.20
399219,5886.00
400223,5910.56
401225,5959.92
402229,5692.22
403231,6135.14
404235,5886.00
405238,5886.00
406241,6009.59
407244,5984.72
408247,5861.51
409250,5910.56
410253,6135.14
411256,5886.00
412260,5910.56
413262,5935.20
414266,5788.51
415268,5886.00
416272,5910.56
417274,5886.00
418278,5668.34
419280,5812.77
420284,5861.51
421287,6109.87
422290,5935.20
423293,5886.00
424296,5886.00
425299,6084.68
426302,6009.59
427305,5886.00
428309,5861.51
429312,6160.49
430315,5620.78
431318,5935.20
432321,5886.00
433324,5886.00
434327,6059.57
435330,5620.78
436333,5837.10
437337,5935.20
438339,6135.14
439343,6059.57
440345,5935.20
441349,5910.56
442351,5861.51
443355,5935.20
444358,5764.33
445361,5935.20
446364,5788.51
447367,5935.20
448370,5812.77
449373,6084.68
450376,5812.77
451379,5812.77
452382,5861.51
453386,5668.34
454388,6135.14
455392,5886.00
456394,5910.56
457398,6084.68
458400,5935.20
459404,5861.51
460407,5910.56
461410,5984.72
462413,5886.00
463416,5861.51
464419,5910.56
465422,5837.10
466425,5886.00
467429,6059.57
468431,5886.00
469435,5984.72
470437,6185.92
471441,5959.92
472443,5861.51
473447,6135.14
474449,5910.56
475453,5597.12
476456,5886.00
477459,5861.51
478462,6084.68
479465,5886.00
480468,5959.92
481471,5861.51
482475,5861.51
483478,5644.52
484481,5861.51
485484,5935.20
486487,5716.18
487490,5812.77
488493,6109.87
489496,5886.00
490499,5788.51
491502,5716.18
492506,5837.10
493508,5910.56
494512,6034.54
495514,5935.20
496518,5861.51
497520,5668.34
498524,5886.00
499527,5764.33
500530,5984.72
501533,5886.00
502536,5740.22
503539,5837.10
504542,5935.20
505545,6135.14
506549,5910.56
507551,6211.43
508555,5910.56
509557,5886.00
510561,6084.68
511563,5861.51
512567,5910.56
513569,6059.57
514573,5861.51
515576,5984.72
516579,5716.18
517582,5910.56
518585,5886.00
519588,5668.34
520591,5886.00
521594,5837.10
522598,5644.52
523600,5861.51
524604,5910.56
525606,6059.57
526610,5716.18
527612,5644.52
528616,5837.10
529618,5886.00
530622,6109.87
531625,5910.56
532628,5886.00
533632,6084.68
534634,5910.56
535638,5910.56
536640,5910.56
537644,6160.49
538647,5716.18
539650,5861.51
540653,6034.54
541656,5573.52
542659,5886.00
543662,5910.56
544665,6135.14
545669,5764.33
546671,5837.10
547675,5886.00
548677,5788.51
549681,6084.68
550683,5935.20
551687,5935.20
552689,5886.00
553693,5668.34
554696,5886.00
555699,5764.33
556702,5935.20
557705,5984.72
558708,5984.72
559711,5910.56
560714,5886.00
561718,5573.52
562720,5764.33
563724,5886.00
564726,5861.51
565730,6211.43
566732,5644.52
567736,5910.56
568738,5886.00
569742,5764.33
570745,6034.54
571748,5861.51
572751,5837.10
573754,5861.51
574757,5692.22
575760,5644.52
576763,5886.00
577767,5935.20
578769,5886.00
579773,5788.51
580775,5812.77
581779,5812.77
582781,5886.00
583785,5668.34
584788,5886.00
585791,5886.00
586795,5740.22
587797,6160.49
588801,5837.10
589803,5861.51
590807,5644.52
591809,5861.51
592813,5886.00
593816,5812.77
594819,6109.87
595822,5910.56
596825,5861.51
597828,5886.00
598831,6135.14
599834,5959.92
600838,5935.20
601840,5935.20
602844,5861.51
603846,6009.59
604850,6009.59
605852,5910.56
606856,5788.51
607858,5788.51
608862,5597.12
609865,6211.44
610868,5935.20
611871,5812.77
612874,5861.51
613877,5788.51
614880,5935.20
615883,5573.52
616887,5886.00
617889,5861.51
618893,5886.00
619895,6084.68
620899,6135.14
621901,6009.59
622905,5910.56
623908,5886.00
624911,5984.72
625914,5668.34
626917,5812.77
627920,5861.51
628923,5837.10
629926,5984.72
630929,5837.10
631932,5935.20
632936,5910.56
633938,5935.20
634942,5837.10
635944,5597.12
636948,5959.92
637950,5935.20
638954,5886.00
639958,5861.51
640960,6135.14
641964,5812.77
642966,5837.10
643970,5861.51
644972,5740.22
645976,5812.77
646979,5935.20
647982,5935.20
648985,6034.54
649988,5984.72
650991,5861.51
651994,5597.12
652997,5837.10
654000,5886.00
655003,5861.51
656007,6160.49
657009,5812.77
658013,5886.00
659015,5764.33
660019,5812.77
661021,5886.00
662025,5886.00
663028,5837.10
664031,5861.51
665034,6185.92
666037,5788.51
667040,5910.56
668043,5886.00
669046,6059.57
670049,5861.51
671052,5935.20
672056,5886.00
673058,5668.34
674062,5812.77
675064,5837.10
676068,5935.20
677070,5812.77
678074,5812.77
679077,6009.59
680080,5910.56
681083,5886.00
682086,5861.51
683089,5812.77
684092,5886.00
685095,6084.68
686099,5812.77
687101,5861.51
688105,5984.72
689107,5886.00
690111,5788.51
691113,5959.92
692117,5788.51
693120,5886.00
694123,5910.56
695127,6185.92
696129,5886.00
697133,5861.51
698135,5984.72
699139,5620.78
700141,5886.00
701145,5788.51
702148,5788.51
703151,5837.10
704154,5886.00
705157,6059.57
706160,5935.20
707163,5910.56
708166,5886.00
709169,5740.22
710172,5886.00
711176,5886.00
712178,5788.51
713182,5910.56
714184,5668.34
715188,5910.56
716190,5861.51
717194,5597.12
718197,5861.51
719200,5910.56
720203,5764.33
721206,5788.51
722209,5886.00
723212,6059.57
724215,5837.10
725218,5861.51
726221,6160.49
727225,5886.00
728227,5861.51
729231,5910.56
730233,5886.00
731237,5886.00
732239,5764.33
733243,5861.51
734246,5886.00
735249,6160.49
736252,5837.10
737255,5837.10
738258,6160.49
739261,5837.10
740264,5861.51
741267,5526.55
742270,5861.51
743274,5935.20
744276,5668.34
745280,5910.56
746283,5861.51
747286,5644.52
748289,5837.10
749292,5812.77
750296,5861.51
751298,5837.10
752302,5886.00
753304,5692.22
754308,5837.10
755310,6009.59
756314,5837.10
757317,5861.51
758320,5935.20
759323,5861.51
760326,5935.20
761329,5837.10
762332,5861.51
763335,6160.49
764338,5837.10
765341,5837.10
766345,5837.10
767347,5812.77
768351,5861.51
769353,5984.72
770357,5837.10
771359,6135.14
772363,5788.51
773366,5910.56
774369,5692.22
775372,5861.51
776375,5886.00
777378,5668.34
778381,5861.51
779384,5740.22
780388,5788.51
781390,5861.51
782394,5910.56
783396,5764.33
784400,5935.20
785402,6109.87
786406,5861.51
787409,6034.54
788412,5861.51
789415,5886.00
790418,5837.10
791421,5886.00
792424,5644.52
793427,5837.10
794430,5812.77
795433,5910.56
796437,5861.51
797440,6034.54
798443,5886.00
799446,5812.77
800449,5550.00
801452,5886.00
802455,5788.51
803459,6135.14
804461,5886.00
805465,6135.14
806467,5837.10
807471,5861.51
808473,5788.51
809477,5812.77
810479,5861.51
811483,5861.51
812486,5644.52
813489,5886.00
814492,5886.00
815495,5716.18
816498,5788.51
817501,5886.00
818504,5910.56
819508,5740.22
820510,5837.10
821514,5886.00
822516,5812.77
823520,5716.18
824522,5886.00
825526,5935.20
826528,5788.51
827532,6185.92
828535,5935.20
829538,5812.77
830541,5861.51
831544,5620.78
832547,5620.78
833550,5886.00
834553,5837.10
835557,5959.92
836559,6160.49
837563,5503.17
838565,5812.77
839569,5788.51
840571,5837.10
841575,5644.52
842577,5716.18
843581,5886.00
844584,5886.00
845587,5788.51
846590,5910.56
847593,5788.51
848596,5837.10
849599,5886.00
850603,5644.52
851606,6160.49
852609,5984.72
853612,5886.00
854615,5837.10
855618,5740.22
856621,5861.51
857624,5935.20
858628,5837.10
859630,5716.18
860634,6059.57
861636,5764.33
862640,5861.51
863642,5886.00
864646,6160.49
865648,5503.17
866652,5886.00
867655,5812.77
868658,5812.77
869661,5644.52
870664,5861.51
871667,5910.56
872670,5886.00
873673,5837.10
874677,6084.68
875679,5910.56
876683,5788.51
877685,5861.51
878689,6009.59
879691,5597.12
880695,5861.51
881698,5935.20
882701,5812.77
883704,5886.00
884707,6160.49
885710,5886.00
886713,5812.77
887716,5861.51
888719,5837.10
889722,6135.14
890726,5812.77
891728,5837.10
892732,5935.20
893734,5644.52
894738,5837.10
895740,5886.00
896744,5837.10
897747,5984.72
898750,5935.20
899753,5812.77
900756,5837.10
901760,5526.55
902762,6009.59
903766,5764.33
904768,5812.77
905772,5861.51
906775,5597.12
907778,5861.51
908781,5886.00
909784,5886.00
910787,5861.51
911790,5984.72
912793,5984.72
913797,5959.92
914799,5812.77
915803,5837.10
916805,5935.20
917809,5644.52
918811,5886.00
919815,5886.00
920818,5910.56
921821,5716.18
922824,5837.10
923827,5837.10
924830,5861.51
925833,5861.51
926836,6160.49
927839,5886.00
928842,5837.10
929846,6009.59
930848,5910.56
931852,5812.77
932854,5837.10
933858,5910.56
934860,5764.33
935864,5861.51
936867,5861.51
937870,5910.56
938873,5740.22
939876,5910.56
940879,5861.51
941882,5935.20
942885,6135.14
943889,5886.00
944891,5837.10
945895,5597.12
946897,5788.51
947901,5837.10
948903,5910.56
949907,6135.14
950909,5812.77
951913,5861.51
952916,6009.59
953919,5837.10
954923,5886.00
955925,5959.92
956929,5861.51
957931,6059.57
958935,5812.77
959938,5837.10
960941,5573.52
961944,5861.51
962947,6185.92
963950,5788.51
964953,5788.51
965956,6059.57
966959,5910.56
967962,5740.22
968966,5837.10
969968,5764.33
970972,6009.59
971974,5837.10
972978,5861.51
973980,5573.52
974984,5910.56
975987,5984.72
976990,5837.10
977993,5861.51
978996,5740.22
979999,5837.10
981002,5886.00
982005,5910.56
983009,5861.51
984011,5788.51
985015,5837.10
986017,5812.77
987021,6059.57
988023,5837.10
989027,5788.51
990029,5479.86
991033,5764.33
992036,5812.77
993039,5692.22
994042,5837.10
995045,5837.10
996048,6084.68
997051,5861.51
998054,5861.51
999058,5620.78
1000060,5837.10
1001064,5861.51
1002066,5573.52
1003070,5812.77
1004073,5837.10
1005076,5984.72
1006080,5837.10
1007082,5861.51
1008086,5910.56
1009089,6109.87
1010092,5788.51
1011095,5812.77
1012098,5935.20
1013101,6059.57
1014105,5861.51
1015107,5812.77
1016111,5597.12
1017113,5692.22
1018117,5812.77
1019120,5837.10
1020123,5886.00
1021126,5764.33
1022130,5812.77
1023132,5935.20
1024136,5861.51
1025138,5692.22
1026142,5716.18
1027145,5910.56
1028148,5886.00
1029151,5837.10
1030154,6109.87
1031157,5764.33
1032161,5837.10
1033163,5861.51
1034167,5861.51
1035169,5550.00
1036173,5861.51
1037176,5861.51
1038179,5861.51
1039182,5692.22
1040185,5716.18
1041188,5837.10
1042192,5837.10
1043194,5837.10
1044198,6135.14
1045200,5861.51
1046204,5910.56
1047207,5764.33
1048210,5740.22
1049213,5861.51
1050217,5812.77
1051219,5861.51
1052223,6288.46
1053225,5886.00
1054229,5812.77
1055233,5812.77
1056235,5764.33
1057239,5910.56
1058241,5861.51
1059245,5620.78
1060248,5740.22
1061251,5812.77
1062254,5812.77
1063257,5935.20
1064260,5837.10
1065264,5910.56
1066266,6109.87
1067270,5837.10
1068272,5812.77
1069276,6084.68
1070279,5861.51
1071282,5886.00
1072285,5764.33
1073288,5837.10
1074291,5620.78
1075295,5740.22
1076297,5886.00
1077301,6084.68
1078303,5837.10
1079307,5886.00
1080310,5837.10
1081313,5837.10
1082316,5812.77
1083320,5837.10
1084322,5861.51
1085326,6109.87
1086328,5861.51
1087332,5740.22
1088335,5812.77
1089338,5935.20
1090341,6135.14
1091344,5861.51
1092347,5959.92
1093351,5886.00
1094353,5837.10
1095357,6034.54
1096359,5837.10
1097363,5861.51
1098366,5716.18
1099369,5837.10
1100372,5526.55
1101375,5886.00
1102379,5886.00
1103382,5886.00
1104385,5837.10
1105388,5837.10
1106391,6034.54
1107394,5812.77
1108398,5740.22
1109400,6135.14
1110404,5861.51
1111407,5861.51
1112410,6059.57
1113413,5910.56
1114416,5886.00
1115419,5668.34
1116423,5788.51
1117425,5861.51
1118429,5837.10
1119431,6135.14
1120435,5886.00
1121438,5886.00
1122441,5788.51
1123444,6059.57
1124447,5886.00
1125450,5935.20
1126454,5812.77
1127456,5620.78
1128460,6084.68
1129462,5910.56
1130466,5861.51
1131469,5812.77
1132472,6109.87
1133475,5764.33
1134479,5861.51
1135481,5812.77
1136485,5788.51
1137487,5597.12
1138491,5573.52
1139494,5812.77
1140497,5788.51
1141500,5837.10
1142503,5910.56
1143506,5861.51
1144510,6059.57
1145512,5812.77
1146516,5716.18
1147518,5837.10
1148522,5764.33
1149526,6059.57
1150528,6109.87
1151532,5740.22
1152534,5812.77
1153538,5861.51
1154541,5837.10
1155544,5692.22
1156547,6084.68
1157551,5837.10
1158553,5861.51
1159557,5959.92
1160559,5788.51
1161563,6084.68
1162566,5597.12
1163569,5886.00
1164572,5886.00
1165575,5812.77
1166578,6109.87
1167582,5692.22
1168584,5886.00
1169588,5837.10
1170590,5837.10
1171594,5644.52
1172597,5910.56
1173600,5837.10
1174603,5788.51
1175606,5837.10
1176609,6237.03
1177613,5620.78
1178615,5886.00
1179619,5788.51
1180621,5788.51
1181625,6160.49
1182628,5812.77
1183631,5861.51
1184634,6185.92
1185638,5861.51
1186640,5861.51
1187644,5812.77
1188646,6109.87
1189650,5837.10
1190653,5812.77
1191656,5644.52
1192659,5812.77
1193662,5837.10
1194665,6185.92
1195669,5861.51
1196672,5837.10
1197675,5668.34
1198678,5740.22
1199681,5788.51
1200685,5550.00
1201687,5886.00
1202691,5812.77
1203693,5503.17
1204697,5861.51
1205700,5837.10
1206703,6084.68
1207706,5935.20
1208709,5837.10
1209712,6135.14
1210716,5788.51
1211718,5788.51
1212722,5886.00
1213725,5910.56
1214728,5886.00
1215731,5984.72
1216734,5812.77
1217737,5812.77
1218741,5861.51
1219743,5668.34
1220747,5886.00
1221749,5886.00
1222753,6185.92
1223756,5837.10
1224759,5886.00
1225762,5644.52
1226765,5788.51
1227768,5910.56
1228772,6059.57
1229774,5886.00
1230778,5935.20
1231780,5886.00
1232784,6160.49
1233787,5837.10
1234790,5861.51
1235793,5812.77
1236797,5812.77
1237799,5812.77
1238803,5526.55
1239805,5812.77
1240809,5837.10
1241812,5620.78
1242815,5788.51
1243819,5812.77
1244821,5788.51
1245825,6009.59
1246828,5837.10
1247831,5959.92
1248834,5740.22
1249837,5984.72
1250840,5788.51
1251844,5861.51
1252846,5935.20
1253850,5910.56
1254852,5812.77
1255856,5597.12
1256859,5910.56
1257862,5837.10
1258865,5764.33
1259869,5886.00
1260871,5812.77
1261875,5788.51
1262877,5812.77
1263881,5788.51
1264884,5837.10
1265887,5837.10
1266890,5692.22
1267893,5788.51
1268896,5812.77
1269900,5597.12
1270902,5812.77
1271906,5861.51
1272908,6009.59
1273912,5812.77
1274915,5837.10
1275918,6185.92
1276921,6084.68
1277924,5886.00
1278927,5837.10
1279931,5935.20
1280933,5935.20
1281937,5935.20
1282940,6009.59
1283943,6084.68
1284946,6084.68
1285949,6135.14
1286952,6262.70
1287956,6185.92
1288958,6211.44
1289962,6262.70
1290964,6471.10
1291968,6366.23