time[ms],R1[ohm]
2,9287.79
1004,9251.56
2008,9287.79
3010,9215.45
4014,9215.45
5016,8792.67
6020,8792.67
7022,8388.26
8026,8001.06
9028,7969.54
10032,7690.77
11034,7361.69
12038,7509.72
13040,7361.69
14044,7420.60
15046,7130.03
16050,7101.52
17052,7044.76
18056,6988.39
19058,6960.35
20062,6739.32
21064,6876.78
22068,6876.78
23070,6766.63
24074,6794.03
25076,6739.32
26080,6577.34
27082,6739.32
28086,6684.98
29088,6684.98
30092,6630.98
31094,6684.97
32098,6712.10
33101,6577.34
34104,6550.65
35107,6630.98
36110,6524.05
37113,6630.98
38116,6524.05
39119,6550.65
40122,6471.10
41125,6418.50
42128,6444.76
43131,6712.10
44134,6444.76
45137,6471.10
46140,6340.22
47143,6471.10
48146,6418.50
49149,6288.46
50152,6418.50
51155,6471.10
52158,6392.32
53161,6550.65
54164,6418.50
55168,6340.23
56170,6577.34
57174,6392.32
58177,6392.32
59180,6577.34
60183,6471.10
61186,6340.23
62189,6392.32
63192,6604.12
64195,6366.23
65198,6418.50
66201,6340.22
67204,6314.30
68207,6314.30
69210,6185.92
70213,6237.03
71216,6262.70
72219,6392.32
73222,6288.46
74225,6211.44
75228,6340.22
76231,6314.30
77234,6288.46
78237,6135.14
79240,6262.70
80243,6288.46
81246,6185.92
82249,6288.46
83253,6288.46
84255,6392.32
85259,6185.92
86261,6237.03
87265,6314.30
88267,6109.87
89271,6211.44
90273,6340.22
91277,6262.70
92279,6109.87
93283,6314.30
94285,6262.70
95289,6185.92
96291,6059.57
97295,6211.44
98297,6262.70
99301,6288.46
100303,6211.44
101307,6340.22
102309,6135.14
103313,6237.03
104316,6237.03
105319,6211.44
106322,6185.92
107325,6392.32
108328,6059.57
109331,6211.44
110334,6160.49
111338,6160.49
112340,6135.14
113344,6314.30
114347,6185.92
115350,6185.92
116353,6288.46
117356,6340.22
118359,6135.14
119362,6237.03
120366,6211.43
121368,6160.49
122372,6034.54
123374,6237.03
124378,6185.92
125380,6135.14
126384,6109.87
127387,6084.68
128390,6237.03
129393,6185.92
130396,6211.44
131399,6185.92
132402,6288.46
133405,6160.49
134408,6185.92
135411,6059.57
136415,6185.92
137417,6185.92
138421,6185.92
139423,6160.49
140427,6366.23
141429,6211.44
142433,6084.68
143435,5984.72
144439,6034.54
145442,6185.92
146445,6160.49
147448,5984.72
148451,5935.20
149454,6135.14
150457,6084.68
151460,6009.59
152464,6288.46
153466,6135.14
154470,6185.92
155472,6034.54
156476,6418.50
157478,6135.14
158482,6135.14
159485,6109.87
160488,5935.20
161491,6109.87
162494,6109.87
163497,6211.44
164500,6262.70
165504,6160.49
166506,6135.14
167510,6185.92
168513,6237.03
169516,6135.14
170519,6084.68
171522,6135.14
172525,6160.49
173528,6109.87
174531,6135.14
175535,5959.92
176537,6185.92
177541,6135.14
178543,6288.46
179547,6009.59
180549,6109.87
181553,6135.14
182555,6211.44
183559,6160.49
184562,6135.14
185565,5959.92
186568,6059.57
187571,6084.68
188574,6034.54
189577,6185.92
190580,6109.87
191584,6109.87
192586,5935.20
193590,5984.72
194592,6084.68
195596,6109.87
196598,6314.30
197602,6109.87
198604,6059.57
199608,6160.49
200611,5959.92
201614,6109.87
202617,6109.87
203620,5886.00
204623,5959.92
205626,6084.68
206629,6160.49
207633,5837.10
208635,6034.54
209639,6109.87
210641,5886.00
211645,6109.87
212647,6084.68
213651,5959.92
214654,6135.14
215657,6059.57
216660,6135.14
217663,6084.68
218667,6059.57
219669,6084.68
220673,6009.59
221675,6084.68
222679,6009.59
223682,6059.57
224685,6160.49
225688,6009.59
226691,5984.72
227694,6314.30
228697,5959.92
229700,6059.57
230704,5910.56
231706,6059.57
232710,6034.54
233712,6009.59
234716,6109.87
235718,6109.87
236722,6288.46
237724,6059.57
238728,6185.92
239731,6009.59
240734,6084.68
241737,5935.20
242740,6034.54
243743,6059.57
244746,6034.54
245749,6009.59
246753,6059.57
247755,5984.72
248759,6034.54
249761,6084.68
250765,6084.68
251767,6084.68
252771,5812.77
253774,6059.57
254777,6059.57
255780,5935.20
256783,6034.54
257786,6009.59
258789,6340.22
259792,6009.59
260795,6034.54
261798,6034.54
262802,5984.72
263804,6034.54
264808,6084.68
265810,5959.92
266814,6034.54
267816,6059.57
268820,6034.54
269824,6135.14
270826,6059.57
271830,6034.54
272832,6059.57
273836,6314.30
274838,6059.57
275842,6034.54
276844,6059.57
277848,6211.44
278851,6059.57
279854,6034.54
280857,6084.68
281860,5886.00
282863,5959.92
283866,6059.57
284869,6034.54
285873,6009.59
286875,6160.49
287879,6059.57
288881,6034.54
289885,6084.68
290887,5861.51
291891,6059.57
292894,6009.59
293897,6059.57
294900,6185.92
295903,5959.92
296906,5984.72
297909,6059.57
298912,6034.54
299915,6034.54
300918,6237.03
301922,5984.72
302924,6009.59
303928,6009.59
304930,5837.10
305934,6009.59
306936,6009.59
307940,6009.59
308943,5812.77
309946,5984.72
310949,6009.59
311952,5959.92
312955,5812.77
313958,6059.57
314961,6009.59
315964,6185.92
316967,6009.59
317971,5959.92
318973,6160.49
319977,5886.00
320979,6059.57
321983,5984.72
322985,5910.56
323989,5984.72
324993,6009.59
325995,6009.59
326999,6059.57
328001,5910.56
329005,6009.59
330007,5984.72
331011,5812.77
332014,6009.59
333017,5935.20
334020,6009.59
335023,5812.77
336026,6084.68
337029,6009.59
338032,5984.72
339035,6009.59
340038,5837.10
341042,5935.20
342044,5984.72
343048,6084.68
344050,6211.44
345054,5959.92
346056,6009.59
347060,5959.92
348063,6034.54
349066,6009.59
350069,5935.20
351072,6034.54
352075,5886.00
353078,5984.72
354081,5959.92
355084,5959.92
356087,6059.57
357091,5935.20
358093,5984.72
359097,6009.59
360099,5764.33
361103,5910.56
362105,6009.59
363109,5984.72
364112,6109.87
365115,6288.46
366118,6009.59
367121,5935.20
368124,5935.20
369127,5861.51
370130,5861.51
371134,5959.92
372136,6009.59
373140,6185.92
374142,6185.92
375146,5959.92
376148,5935.20
377152,5959.92
378155,5837.10
379158,5959.92
380162,5959.92
381164,5984.72
382168,5935.20
383170,6211.44
384174,5910.56
385176,5959.92
386180,6034.54
387183,6160.49
388186,6160.49
389189,5935.20
390192,5984.72
391195,6009.59
392198,5837.10
393201,6185.92
394205,5959.92
395207,5984.72
396211,6009.59
397213,6084.68
398217,6160.49
399219,6009.59
400223,6034.54
401225,5910.56
402229,5764.33
403232,5935.20
404235,5959.92
405238,6009.59
406241,6135.14
407244,6109.87
408247,5984.72
409250,6009.59
410254,6160.49
411256,6135.14
412260,5959.92
413262,5910.56
414266,6109.87
415268,6059.57
416272,5984.72
417275,5984.72
418278,6059.57
419281,5959.92
420284,5910.56
421287,6109.87
422290,5861.51
423293,5935.20
424296,6135.14
425299,5910.56
426303,5984.72
427305,5861.51
428309,5959.92
429312,5935.20
430315,6084.68
431318,5910.56
432321,5959.92
433325,5764.33
434327,6009.59
435331,5984.72
436333,5740.22
437337,5935.20
438339,5935.20
439343,5812.77
440346,5935.20
441349,5935.20
442352,6211.44
443355,5935.20
444358,5984.72
445361,6009.59
446364,5935.20
447367,5935.20
448370,6135.14
449374,5935.20
450376,5935.20
451380,5764.33
452382,5959.92
453386,5935.20
454388,5837.10
455392,5910.56
456395,5910.56
457398,6109.87
458401,5935.20
459404,6185.92
460407,5959.92
461410,5910.56
462413,5812.77
463417,5910.56
464419,5935.20
465423,5812.77
466425,5935.20
467429,5984.72
468431,6160.49
469435,5984.72
470437,6135.14
471441,5984.72
472444,5935.20
473447,5861.51
474450,5935.20
475453,5935.20
476456,6135.14
477459,5935.20
478462,5935.20
479466,6059.57
480468,5788.51
481472,5910.56
482475,5935.20
483478,6135.14
484481,5910.56
485484,5910.56
486488,5861.51
487490,6084.68
488494,5935.20
489496,5910.56
490500,5764.33
491502,5910.56
492506,5935.20
493509,6135.14
494512,5935.20
495515,5910.56
496518,5861.51
497521,5935.20
498524,5984.72
499527,6009.59
500530,5886.00
501533,5959.92
502537,5837.10
503539,6160.49
504543,5910.56
505545,5910.56
506549,6034.54
507551,6084.68
508555,5959.92
509558,5959.92
510561,5740.22
511564,5886.00
512567,5910.56
513570,5935.20
514573,6185.92
515576,5910.56
516580,5886.00
517582,5984.72
518586,6059.57
519588,5910.56
520592,5910.56
521594,6109.87
522598,5910.56
523600,5935.20
524604,5935.20
525607,5910.56
526610,5959.92
527613,5861.51
528616,5716.18
529619,6160.49
530622,5812.77
531625,5935.20
532629,5668.34
533632,6160.49
534635,5935.20
535638,5959.92
536641,6059.57
537644,5788.51
538647,5935.20
539650,5935.20
540653,5984.72
541657,5837.10
542659,5886.00
543663,5861.51
544665,5984.72
545669,6009.59
546671,5910.56
547675,5910.56
548678,5837.10
549681,6034.54
550684,5910.56
551687,5910.56
552690,5910.56
553693,5764.33
554696,5692.22
555700,5935.20
556702,5935.20
557706,5984.72
558708,5620.78
559712,5740.22
560714,5984.72
561718,5935.20
562720,5861.51
563724,5886.00
564727,5837.10
565730,5692.22
566733,5740.22
567736,5812.77
568739,5886.00
569742,5959.92
570745,5861.51
571749,5984.72
572751,6211.44
573755,5788.51
574757,5788.51
575761,5886.00
576763,5935.20
577767,5910.56
578770,6009.59
579773,5959.92
580776,5959.92
581779,5959.92
582782,5959.92
583785,5935.20
584788,6009.59
585791,5886.00
586795,5886.00
587798,5935.20
588801,5788.51
589804,6009.59
590807,5861.51
591810,5886.00
592813,5861.51
593816,5837.10
594820,5837.10
595822,5886.00
596826,5910.56
597828,5837.10
598832,5837.10
599834,5935.20
600838,5935.20
601840,5910.56
602844,5886.00
603847,5935.20
604850,5984.72
605853,5935.20
606856,5910.56
607859,5837.10
608862,5910.56
609865,5886.00
610869,5861.51
611871,5935.20
612875,5935.20
613877,5812.77
614881,5935.20
615883,5837.10
616887,5959.92
617890,5910.56
618893,5910.56
619896,6034.54
620899,5861.51
621902,5886.00
622905,5764.33
623908,5959.92
624911,6009.59
625914,5886.00
626918,5886.00
627920,5935.20
628924,5935.20
629926,5984.72
630930,5886.00
631932,5886.00
632936,5886.00
633938,6084.68
634942,5910.56
635945,5959.92
636948,6135.14
637952,5886.00
638954,5886.00
639958,5764.33
640960,5886.00
641964,5886.00
642967,6109.87
643970,5910.56
644973,5861.51
645976,6059.57
646979,5984.72
647982,5910.56
648985,5812.77
649988,6034.54
650991,5910.56
651995,5837.10
652997,6034.54
654001,5886.00
655003,5886.00
656007,5910.56
657009,6034.54
658013,5837.10
659016,5886.00
660019,5716.18
661022,5812.77
662025,5861.51
663028,5788.51
664031,5886.00
665034,5886.00
666037,5959.92
667040,5788.51
668044,5886.00
669046,5910.56
670050,5740.22
671052,5861.51
672056,5886.00
673058,5692.22
674062,5788.51
675065,5837.10
676068,5886.00
677071,5984.72
678074,5935.20
679077,5886.00
680080,6034.54
681083,5861.51
682086,5910.56
683089,6135.14
684093,5886.00
685095,5910.56
686099,5886.00
687101,5861.51
688105,5910.56
689107,5984.72
690111,5984.72
691115,5861.51
692117,5886.00
693121,5861.51
694123,5910.56
695127,5886.00
696129,5959.92
697133,5861.51
698136,5910.56
699139,5910.56
700142,5910.56
701145,5886.00
702148,5692.22
703151,5861.51
704154,5861.51
705157,6109.87
706160,5886.00
707164,5935.20
708166,5861.51
709170,5812.77
710172,5861.51
711176,5837.10
712178,5910.56
713182,5910.56
714185,5597.12
715188,5886.00
716191,5886.00
717194,5740.22
718197,5788.51
719200,5886.00
720203,5740.22
721207,5644.52
722209,5837.10
723213,5886.00
724215,6059.57
725219,5935.20
726221,5837.10
727225,5740.22
728227,6059.57
729231,5886.00
730234,5935.20
731237,5861.51
732240,5886.00
733243,5886.00
734246,5837.10
735249,5984.72
736252,5812.77
737256,5886.00
738258,5740.22
739262,5886.00
740264,5861.51
741268,5886.00
742270,5984.72
743274,5837.10
744276,5861.51
745280,5910.56
746284,6034.54
747286,5910.56
748290,5861.51
749292,6059.57
750296,5935.20
751298,5861.51
752302,5861.51
753305,6084.68
754308,5886.00
755311,5886.00
756314,5861.51
757317,5716.18
758320,5764.33
759323,5861.51
760327,5861.51
761329,5935.20
762333,5910.56
763335,5861.51
764339,5886.00
765341,5910.56
766345,5788.51
767347,6009.59
768351,5861.51
769354,5886.00
770357,5886.00
771360,5886.00
772363,5935.20
773366,6084.68
774369,5959.92
775372,5861.51
776376,5812.77
777378,5886.00
778382,5740.22
779384,6109.87
780388,5984.72
781390,5837.10
782394,5861.51
783397,5861.51
784400,5984.72
785403,5764.33
786406,5935.20
787409,5910.56
788412,5716.18
789415,5740.22
790418,5886.00
791421,5886.00
792425,6109.87
793427,5812.77
794431,5886.00
795433,5837.10
796437,6084.68
797440,5861.51
798443,5910.56
799447,5692.22
800449,5910.56
801453,5886.00
802455,5788.51
803459,5764.33
804461,5861.51
805465,5861.51
806468,5886.00
807471,5788.51
808474,5861.51
809477,5984.72
810480,5984.72
811483,5812.77
812486,5861.51
813489,5886.00
814492,5861.51
815496,5861.51
816498,6059.57
817502,5935.20
818504,5837.10
819508,5861.51
820510,5910.56
821514,5910.56
822517,5740.22
823520,6034.54
824523,5740.22
825526,5812.77
826529,5861.51
827532,5886.00
828535,5861.51
829538,5886.00
830541,5812.77
831545,6109.87
832547,5837.10
833551,5837.10
834553,6009.59
835557,5764.33
836559,5886.00
837563,5984.72
838566,5788.51
839569,5886.00
840572,5837.10
841575,6034.54
842578,5837.10
843581,5837.10
844584,5716.18
845588,6109.87
846590,5837.10
847594,5837.10
848596,5959.92
849600,5886.00
850603,5910.56
851606,5764.33
852609,5837.10
853612,5861.51
854616,5837.10
855618,5861.51
856622,6009.59
857624,5837.10
858628,5861.51
859630,5861.51
860634,5935.20
861637,5886.00
862640,5886.00
863643,5886.00
864646,5812.77
865649,5837.10
866652,5861.51
867655,5886.00
868658,5764.33
869661,5812.77
870665,5812.77
871667,5886.00
872671,5910.56
873673,5644.52
874677,5861.51
875679,5861.51
876683,5788.51
877686,6059.57
878689,5886.00
879692,5837.10
880695,5812.77
881698,5812.77
882701,5812.77
883704,5886.00
884708,5886.00
885710,5886.00
886714,5837.10
887716,5959.92
888720,5812.77
889722,5837.10
890726,5812.77
891728,5959.92
892732,5886.00
893735,5837.10
894738,5935.20
895741,5812.77
896744,5959.92
897747,5837.10
898750,5861.51
899753,5837.10
900757,5644.52
901760,5886.00
902763,5764.33
903766,6135.14
904769,5812.77
905772,5837.10
906775,5812.77
907779,5668.34
908781,5861.51
909785,5837.10
910787,6059.57
911791,5837.10
912793,5910.56
913797,5644.52
914799,5788.51
915803,5886.00
916806,5959.92
917809,5837.10
918812,5837.10
919815,6034.54
920818,5861.51
921821,5788.51
922824,5861.51
923828,6084.68
924830,5764.33
925834,5837.10
926836,5984.72
927840,5935.20
928842,5886.00
929846,5812.77
930849,5837.10
931852,5861.51
932855,5959.92
933858,5812.77
934861,5837.10
935864,5861.51
936867,5764.33
937870,5886.00
938873,5837.10
939877,5910.56
940879,5861.51
941883,5861.51
942885,6009.59
943889,5740.22
944891,5812.77
945895,5886.00
946898,6009.59
947901,5886.00
948904,5812.77
949907,5692.22
950910,5837.10
951913,5837.10
952916,6034.54
953920,5959.92
954923,5861.51
955926,5910.56
956929,5573.52
957932,5837.10
958935,5837.10
959938,5837.10
960941,5886.00
961944,5812.77
962948,5716.18
963950,5812.77
964954,5837.10
965956,5716.18
966960,5812.77
967962,5886.00
968966,6059.57
969969,5837.10
970972,5812.77
971975,6009.59
972978,5861.51
973981,5861.51
974984,5692.22
975987,5812.77
976991,5788.51
977993,6034.54
978997,5861.51
979999,5935.20
981003,5716.18
982005,5861.51
983009,5716.18
984012,5861.51
985015,5764.33
986018,5837.10
987021,5837.10
988024,5668.34
989027,5861.51
990030,5886.00
991033,5812.77
992036,5861.51
993040,5837.10
994042,5692.22
995046,5812.77
996048,5837.10
997052,5764.33
998054,5837.10
999058,5886.00
1000061,5668.34
1001064,5886.00
1002067,5910.56
1003070,6034.54
1004073,5788.51
1005077,5959.92
1006080,5740.22
1007083,5886.00
1008086,6009.59
1009089,5764.33
1010093,5837.10
1011095,5959.92
1012099,5837.10
1013101,5861.51
1014105,5620.78
1015108,5861.51
1016111,5861.51
1017114,5886.00
1018117,5861.51
1019120,5812.77
1020124,5886.00
1021126,5764.33
1022130,5788.51
1023133,5812.77
1024136,5861.51
1025139,5812.77
1026142,5740.22
1027145,5740.22
1028149,5837.10
1029151,5861.51
1030155,6009.59
1031157,5861.51
1032161,5740.22
1033164,5644.52
1034167,5837.10
1035170,5764.33
1036173,5812.77
1037176,5861.51
1038180,6034.54
1039182,5886.00
1040186,5788.51
1041188,5597.12
1042192,5910.56
1043195,5910.56
1044198,5692.22
1045201,5861.51
1046205,5984.72
1047207,5812.77
1048211,5812.77
1049213,6009.59
1050217,5812.77
1051220,5837.10
1052223,5668.34
1053227,5837.10
1054229,5812.77
1055233,5620.78
1056236,5861.51
1057239,5837.10
1058242,6009.59
1059245,5837.10
1060248,5861.51
1061252,5788.51
1062254,5837.10
1063258,5764.33
1064260,5837.10
1065264,5861.51
1066267,5886.00
1067270,5788.51
1068273,5812.77
1069276,5788.51
1070279,5812.77
1071283,5861.51
1072285,5837.10
1073289,5861.51
1074292,5716.18
1075295,5886.00
1076298,5861.51
1077301,5861.51
1078304,5861.51
1079308,5910.56
1080310,5935.20
1081314,5812.77
1082316,5764.33
1083320,5910.56
1084323,5788.51
1085326,5959.92
1086329,5837.10
1087332,5861.51
1088335,5812.77
1089339,5812.77
1090341,5861.51
1091345,5668.34
1092347,5837.10
1093351,5910.56
1094354,5620.78
1095357,5812.77
1096360,5812.77
1097363,5812.77
1098366,5861.51
1099370,5837.10
1100372,5740.22
1101376,5861.51
1102380,5861.51
1103382,5886.00
1104386,5959.92
1105388,5764.33
1106392,5861.51
1107395,5861.51
1108398,5935.20
1109401,5910.56
1110404,5812.77
1111407,5812.77
1112411,5668.34
1113413,5716.18
1114417,5910.56
1115419,5740.22
1116423,5886.00
1117426,6084.68
1118429,5764.33
1119432,5812.77
1120435,5861.51
1121438,5959.92
1122442,6009.59
1123444,5837.10
1124448,5861.51
1125451,5886.00
1126454,5692.22
1127457,5812.77
1128460,5837.10
1129463,5861.51
1130467,5861.51
1131469,5837.10
1132473,5861.51
1133475,5837.10
1134479,5644.52
1135482,5886.00
1136485,5812.77
1137488,5812.77
1138491,5788.51
1139494,5984.72
1140498,5861.51
1141500,5812.77
1142504,5861.51
1143506,5935.20
1144510,5935.20
1145513,5812.77
1146516,5886.00
1147520,5692.22
1148522,5668.34
1149526,5910.56
1150529,5861.51
1151532,5740.22
1152535,5935.20
1153539,5812.77
1154541,5886.00
1155545,5692.22
1156547,5861.51
1157551,5837.10
1158554,5837.10
1159557,5910.56
1160560,5788.51
1161563,5837.10
1162566,6009.59
1163570,5984.72
1164572,5861.51
1165576,5837.10
1166578,5764.33
1167582,5764.33
1168585,5861.51
1169588,5837.10
1170591,5812.77
1171594,5668.34
1172597,5886.00
1173601,5837.10
1174603,5837.10
1175607,5788.51
1176609,5837.10
1177613,5788.51
1178616,5812.77
1179619,5644.52
1180622,5837.10
1181626,5837.10
1182628,5886.00
1183632,5910.56
1184634,5837.10
1185638,5788.51
1186641,5597.12
1187644,5668.34
1188647,5886.00
1189650,5837.10
1190653,5597.12
1191657,5886.00
1192659,5861.51
1193663,5861.51
1194665,6034.54
1195669,5788.51
1196673,5812.77
1197675,5886.00
1198679,5716.18
1199681,5740.22
1200685,5861.51
1201688,6009.59
1202691,5861.51
1203694,5837.10
1204698,5692.22
1205700,5812.77
1206704,5837.10
1207706,5644.52
1208710,5788.51
1209713,5837.10
1210716,5861.51
1211719,5861.51
1212722,5837.10
1213725,6034.54
1214729,5812.77
1215731,5837.10
1216735,5812.77
1217737,5764.33
1218741,5788.51
1219744,5716.18
1220747,5861.51
1221750,5812.77
1222754,5910.56
1223756,5764.33
1224760,5984.72
1225762,5837.10
1226766,5837.10
1227769,5812.77
1228772,5812.77
1229775,5861.51
1230778,6034.54
1231781,5837.10
1232785,5984.72
1233787,5788.51
1234791,5837.10
1235793,5812.77
1236797,5812.77
1237800,5861.51
1238803,5764.33
1239806,5764.33
1240809,5764.33
1241812,5837.10
1242816,5861.51
1243819,5861.51
1244822,5788.51
1245826,5740.22
1246828,5812.77
1247832,5861.51
1248834,5788.51
1249838,5837.10
1250841,5740.22
1251844,5861.51
1252847,5620.78
1253850,5861.51
1254853,5935.20
1255857,5886.00
1256859,5861.51
1257863,5861.51
1258865,5837.10
1259869,5764.33
1260872,5668.34
1261875,5837.10
1262878,5668.34
1263881,5788.51
1264884,5861.51
1265888,5716.18
1266890,5837.10
1267894,5837.10
1268897,6084.68
1269900,5861.51
1270903,5861.51
1271906,5620.78
1272909,5812.77
1273913,5812.77
1274915,5644.52
1275919,5861.51
1276921,5812.77
1277925,5812.77
1278928,5764.33
1279931,5935.20
1280934,5935.20
1281937,5837.10
1282940,5812.77
1283944,5597.12
1284946,5837.10
1285950,5861.51
1286953,6059.57
1287956,5812.77
1288960,5788.51
1289962,5620.78
1290966,5861.51
1291969,5837.10
1292972,5984.72
1293975,5788.51
1294978,5788.51
1295981,5788.51
1296985,5837.10
1297987,5812.77
1298991,5812.77
1299993,5764.33
1300997,5812.77
1302000,5740.22
1303003,5837.10
1304006,5812.77
1305009,5861.51
1306012,5886.00
1307016,5812.77
1308018,5812.77
1309022,5935.20
1310025,5886.00
1311028,5861.51
1312031,5837.10
1313034,5886.00
1314037,5935.20
1315041,5788.51
1316043,5861.51
1317047,5788.51
1318049,6009.59
1319053,5861.51
1320056,5812.77
1321059,5837.10
1322062,5620.78
1323065,5812.77
1324068,5764.33
1325072,5788.51
1326074,5668.34
1327078,5764.33
1328080,5812.77
1329084,5959.92
1330087,5984.72
1331090,5812.77
1332093,5812.77
1333096,5886.00
1334099,5837.10
1335103,5812.77
1336105,5861.51
1337109,5740.22
1338113,5861.51
1339115,5837.10
1340119,5788.51
1341121,6034.54
1342125,5740.22
1343128,5812.77
1344131,5788.51
1345134,5910.56
1346137,6009.59
1347140,5788.51
1348144,5812.77
1349146,5861.51
1350150,5716.18
1351152,5861.51
1352156,5837.10
1353159,5837.10
1354162,5644.52
1355165,5910.56
1356168,5861.51
1357171,5861.51
1358175,5788.51
1359177,5812.77
1360181,5812.77
1361183,5861.51
1362187,5886.00
1363190,5837.10
1364193,5886.00
1365196,5740.22
1366200,5861.51
1367202,5812.77
1368206,5788.51
1369208,5644.52
1370212,6009.59
1371215,5861.51
1372218,5812.77
1373221,5788.51
1374224,5644.52
1375227,5620.78
1376231,5740.22
1377233,5837.10
1378237,5692.22
1379239,5597.12
1380243,5861.51
1381246,5788.51
1382249,5935.20
1383252,5668.34
1384255,5764.33
1385259,5764.33
1386262,5959.92
1387265,5886.00
1388268,5837.10
1389272,5837.10
1390274,5959.92
1391278,5812.77
1392280,5861.51
1393284,5910.56
1394287,5788.51
1395290,5861.51
1396293,5861.51
1397296,5812.77
1398299,5716.18
1399303,5837.10
1400305,5861.51
1401309,6009.59
1402311,5812.77
1403315,5550.00
1404318,5861.51
1405321,5788.51
1406324,5740.22
1407327,5812.77
1408330,5644.52
1409334,5812.77
1410336,5837.10
1411340,5837.10
1412342,5788.51
1413346,5861.51
1414349,5812.77
1415352,5716.18
1416355,5837.10
1417359,5837.10
1418361,5910.56
1419365,5837.10
1420367,5668.34
1421371,5812.77
1422374,5861.51
1423377,5984.72
1424380,5788.51
1425383,5886.00
1426386,5812.77
1427390,5837.10
1428392,5837.10
1429396,5788.51
1430398,5788.51
1431402,5764.33
1432406,6009.59
1433408,5861.51
1434412,5764.33
1435414,5764.33
1436418,5812.77
1437421,5716.18
1438424,5764.33
1439427,5788.51
1440431,5861.51
1441433,5764.33
1442437,5886.00
1443439,5861.51
1444443,5812.77
1445446,5910.56
1446449,5837.10
1447452,5959.92
1448455,5837.10
1449458,5740.22
1450462,5668.34
1451464,5812.77
1452468,6009.59
1453470,5837.10
1454474,5812.77
1455477,5620.78
1456480,5812.77
1457483,5812.77
1458486,6059.57
1459489,5812.77
1460493,5837.10
1461495,5620.78
1462499,5716.18
1463501,5788.51
1464505,5861.51
1465508,5597.12
1466511,5984.72
1467514,5837.10
1468517,5812.77
1469520,5886.00
1470524,5668.34
1471526,5837.10
1472530,5788.51
1473533,5812.77
1474536,5620.78
1475539,5812.77
1476542,5812.77
1477545,5837.10
1478549,5764.33
1479552,5788.51
1480555,5837.10
1481558,5837.10
1482561,5984.72
1483565,5716.18
1484567,5788.51
1485571,5812.77
1486573,6009.59
1487577,6084.68
1488580,5692.22
1489583,5788.51
1490586,5788.51
1491589,5886.00
1492592,6059.57
1493596,5861.51
1494598,5812.77
1495602,5812.77
1496605,6084.68
1497608,5886.00
1498611,5861.51
1499614,5716.18
1500617,5861.51
1501621,5716.18
1502623,5740.22
1503627,5837.10
1504629,5886.00
1505633,5788.51
1506636,5764.33
1507639,5837.10
1508642,5984.72
1509645,5861.51
1510648,5812.77
1511652,5861.51
1512654,5984.72
1513658,5837.10
1514660,5812.77
1515664,6109.87
1516667,5837.10
1517670,5788.51
1518673,5764.33
1519677,5837.10
1520679,5740.22
1521683,5812.77
1522685,5788.51
1523689,5861.51
1524692,5812.77
1525695,5620.78
1526699,5788.51
1527701,5812.77
1528705,6009.59
1529708,5740.22
1530711,5910.56
1531714,5984.72
1532717,5886.00
1533720,5837.10
1534724,5861.51
1535726,6009.59
1536730,5837.10
1537732,5837.10
1538736,5788.51
1539739,5886.00
1540742,5788.51
1541745,5837.10
1542749,6009.59
1543751,5764.33
1544755,5764.33
1545757,5861.51
1546761,6059.57
1547764,5788.51
1548767,5788.51
1549770,5861.51
1550773,5788.51
1551776,5837.10
1552780,5597.12
1553782,5861.51
1554786,5910.56
1555788,5910.56
1556792,5812.77
1557795,5910.56
1558798,5935.20
1559801,5788.51
1560804,5861.51
1561807,5597.12
1562811,5861.51
1563813,5837.10
1564817,6009.59
1565820,5788.51
1566823,5837.10
1567826,5620.78
1568829,5861.51
1569832,5788.51
1570836,5740.22
1571838,5764.33
1572842,5788.51
1573844,5716.18
1574848,5788.51
1575852,5861.51
1576854,5644.52
1577858,5837.10
1578860,5740.22
1579864,5740.22
1580867,5764.33
1581870,5837.10
1582873,5716.18
1583877,5788.51
1584879,5837.10
1585883,5620.78
1586885,5886.00
1587889,5764.33
1588892,5573.52
1589895,5740.22
1590898,5812.77
1591901,5692.22
1592904,6109.87
1593908,5812.77
1594910,5886.00
1595914,5959.92
1596916,5861.51
1597920,5788.51
1598923,5526.55
1599926,5764.33
1600929,5837.10
1601932,5597.12
1602935,5740.22
1603939,5861.51
1604941,6084.68
1605945,5837.10
1606948,5861.51
1607951,5959.92
1608954,5764.33
1609957,5788.51
1610960,5597.12
1611964,5812.77
1612966,5837.10
1613970,5886.00
1614972,5716.18
1615976,5692.22
1616979,5837.10
1617982,5812.77
1618985,5984.72
1619988,5812.77
1620992,5886.00
1621995,5788.51
1622998,5812.77
1624001,6009.59
1625004,5935.20
1626007,5764.33
1627011,5644.52
1628013,5812.77
1629017,5837.10
1630020,5959.92
1631023,5886.00
1632026,5861.51
1633029,5935.20
1634032,5886.00
1635036,5812.77
1636038,5910.56
1637042,5812.77
1638044,5812.77
1639048,5959.92
1640051,5788.51
1641054,5812.77
1642057,5910.56
1643060,5837.10
1644063,5837.10
1645067,5861.51
1646069,6034.54
1647073,5788.51
1648075,5812.77
1649079,6059.57
1650082,5959.92
1651085,5740.22
1652088,5837.10
1653092,5910.56
1654094,5910.56
1655098,5812.77
1656100,5837.10
1657104,5479.86
1658107,5788.51
1659110,5812.77
1660113,5764.33
1661116,6009.59
1662119,5886.00
1663123,5837.10
1664125,5935.20
1665129,5692.22
1666131,5812.77
1667135,5837.10
1668139,5668.34
1669141,5788.51
1670145,5861.51
1671147,5788.51
1672151,5644.52
1673154,5764.33
1674157,5788.51
1675160,5788.51
1676164,5984.72
1677166,5788.51
1678170,5837.10
1679172,5812.77
1680176,5550.00
1681179,5740.22
1682182,5788.51
1683185,5812.77
1684188,5984.72
1685191,5692.22
1686195,5812.77
1687197,5837.10
1688201,5812.77
1689203,5861.51
1690207,5812.77
1691210,5764.33
1692213,5788.51
1693216,5812.77
1694219,5788.51
1695222,5812.77
1696226,5764.33
1697228,5812.77
1698232,5620.78
1699234,5740.22
1700238,5812.77
1701241,5861.51
1702244,5597.12
1703247,5812.77
1704251,5837.10
1705253,5788.51
1706257,5788.51
1707259,5812.77
1708263,5788.51
1709266,5716.18
1710269,5764.33
1711272,5837.10
1712275,5812.77
1713278,5788.51
1714282,5812.77
1715284,6084.68
1716288,5886.00
1717291,5861.51
1718294,5984.72
1719298,5692.22
1720300,5837.10
1721304,5812.77
1722306,5812.77
1723310,5861.51
1724313,5886.00
1725316,5812.77
1726319,5716.18
1727322,5812.77
1728325,5837.10
1729329,5644.52
1730331,5812.77
1731335,5959.92
1732338,5788.51
1733341,5812.77
1734344,5861.51
1735347,5788.51
1736350,5620.78
1737354,5740.22
1738356,5861.51
1739360,6135.14
1740362,5861.51
1741366,5597.12
1742369,5861.51
1743372,5788.51
1744375,5573.52
1745378,5861.51
1746381,5886.00
1747385,5837.10
1748387,5837.10
1749391,5716.18
1750393,5788.51
1751397,5935.20
1752400,5837.10
1753403,5812.77
1754406,5550.00
1755410,5837.10
1756412,5861.51
1757416,5620.78
1758418,5812.77
1759422,5837.10
1760425,5910.56
1761428,5788.51
1762432,5837.10
1763434,5788.51
1764438,5837.10
1765441,5886.00
1766444,6034.54
1767447,5788.51
1768450,5861.51
1769453,5716.18
1770457,5812.77
1771459,5861.51
1772463,5837.10
1773465,5812.77
1774469,5861.51
1775472,6009.59
1776475,5837.10
1777478,5886.00
1778482,5984.72
1779484,5861.51
1780488,5812.77
1781490,5597.12
1782494,5959.92
1783497,5788.51
1784500,5886.00
1785503,5597.12
1786506,5788.51
1787509,5788.51
1788513,5861.51
1789515,5692.22
1790519,5886.00
1791521,5837.10
1792525,5837.10
1793528,5837.10
1794531,5812.77
1795534,5788.51
1796538,5861.51
1797540,5910.56
1798544,5837.10
1799546,5740.22
1800550,5861.51
1801553,6059.57
1802556,5861.51
1803559,5837.10
1804562,5861.51
1805565,5861.51
1806569,5812.77
1807571,5812.77
1808575,5740.22
1809577,5788.51
1810581,5788.51
1811585,5812.77
1812587,5812.77
1813591,6084.68
1814593,5812.77
1815597,5837.10
1816600,5692.22
1817603,5959.92
1818606,5812.77
1819609,5861.51
1820612,5573.52
1821616,5959.92
1822618,5837.10
1823622,5812.77
1824625,5837.10
1825628,5812.77
1826631,5788.51
1827634,5837.10
1828637,6084.68
1829641,5837.10
1830643,5861.51
1831647,5620.78
1832649,5812.77
1833653,5812.77
1834656,5788.51
1835659,5861.51
1836662,5837.10
1837665,5861.51
1838668,6059.57
1839672,5788.51
1840674,5597.12
1841678,5837.10
1842680,5788.51
1843684,5984.72
1844687,5764.33
1845690,5812.77
1846693,5861.51
1847697,5812.77
1848699,5837.10
1849703,5861.51
1850705,5692.22
1851709,5668.34
1852712,5644.52
1853715,5788.51
1854718,5788.51
1855721,6135.14
1856724,5812.77
1857728,5837.10
1858731,5910.56
1859734,5861.51
1860737,5837.10
1861740,5716.18
1862744,5764.33
1863746,5644.52
1864750,5861.51
1865752,5764.33
1866756,5620.78
1867759,5812.77
1868762,5861.51
1869765,5644.52
1870769,5716.18
1871771,5788.51
1872775,5692.22
1873777,5812.77
1874781,5812.77
1875784,5526.55
1876787,5861.51
1877790,5812.77
1878793,6059.57
1879796,5812.77
1880800,5837.10
1881802,5597.12
1882806,5812.77
1883808,5935.20
1884812,5692.22
1885815,5812.77
1886818,5984.72
1887821,5837.10
1888824,5861.51
1889827,5620.78
1890831,5812.77
1891833,6034.54
1892837,5764.33
1893840,5861.51
1894843,5668.34
1895846,5788.51
1896849,5764.33
1897852,5788.51
1898856,5788.51
1899858,5812.77
1900862,5526.55
1901864,5764.33
1902868,5837.10
1903872,5837.10
1904874,5861.51
1905878,5812.77
1906880,5788.51
1907884,5740.22
1908887,5837.10
1909890,5959.92
1910893,5837.10
1911896,5861.51
1912899,5620.78
1913903,5764.33
1914905,5764.33
1915909,5886.00
1916911,5837.10
1917915,5886.00
1918918,6084.68
1919921,5764.33
1920924,5788.51
1921928,5812.77
1922930,5935.20
1923934,5886.00
1924936,6009.59
1925940,5886.00
1926943,5788.51
1927946,5837.10
1928949,5644.52
1929952,5861.51
1930955,5788.51
1931959,6009.59
1932961,5788.51
1933965,5886.00
1934967,5959.92
1935971,5812.77
1936974,5837.10
1937977,6109.87
1938980,5812.77
1939983,5837.10
1940986,6084.68
1941990,5837.10
1942992,5959.92
1943996,5910.56
1944998,5837.10
1946002,6009.59
1947005,5740.22
1948008,5837.10
1949011,5716.18
1950015,5788.51
1951017,5984.72
1952021,5788.51
1953024,5716.18
1954027,5740.22
1955031,5837.10
1956033,5959.92
1957037,5837.10
1958039,5837.10
1959043,5479.86
1960046,5788.51
1961049,5886.00
1962052,5740.22
1963055,5788.51
1964058,5959.92
1965062,5837.10
1966064,5861.51
1967068,5597.12
1968071,5812.77
1969074,5959.92
1970077,5837.10
1971080,5910.56
1972083,5692.22
1973087,5837.10
1974089,5788.51
1975093,5764.33
1976095,5788.51
1977099,5837.10
1978102,5573.52
1979105,5788.51
1980108,5597.12
1981111,5812.77
1982114,5812.77
1983118,5837.10
1984120,5812.77
1985124,5837.10
1986126,5550.00
1987130,5788.51
1988133,5837.10
1989136,5573.52
1990139,5740.22
1991142,5886.00
1992145,5740.22
1993149,5740.22
1994151,5886.00
1995155,5788.51
1996158,5861.51
1997161,5788.51
1998164,5716.18
1999167,5812.77
2000171,5886.00
2001174,5764.33
2002177,5861.51
2003180,5910.56
2004183,5812.77
2005186,5812.77
2006190,5886.00
2007192,5837.10
2008196,5764.33
2009198,6034.54
2010202,5764.33
2011205,5764.33
2012208,5984.72
2013211,5837.10
2014214,5837.10
2015217,5644.52
2016221,5788.51
2017223,5861.51
2018227,5984.72
2019230,5788.51
2020233,5788.51
2021236,5886.00
2022239,5861.51
2023242,5764.33
2024246,5910.56
2025248,5837.10
2026252,5837.10
2027254,5573.52
2028258,5837.10
2029261,5764.33
2030264,5910.56
2031267,5812.77
2032270,5861.51
2033273,6009.59
2034277,5716.18
2035279,5861.51
2036283,5644.52
2037285,5837.10
2038289,5812.77
2039292,5573.52
2040295,5740.22
2041298,5861.51
2042302,5692.22
2043304,5837.10
2044308,5935.20
2045310,5812.77
2046314,5788.51
2047318,5573.52
2048320,5812.77
2049324,5861.51
2050326,5812.77
2051330,5837.10
2052333,5886.00
2053336,5812.77
2054339,5861.51
2055342,6009.59
2056345,5812.77
2057349,5692.22
2058351,5812.77
2059355,5886.00
2060357,5984.72
2061361,5764.33
2062364,5788.51
2063367,5692.22
2064370,5788.51
2065374,5837.10
2066376,5597.12
2067380,5837.10
2068382,5788.51
2069386,5573.52
2070389,5886.00
2071392,5837.10
2072395,5526.55
2073398,5886.00
2074401,5788.51
2075405,5668.34
2076407,5550.00
2077411,5837.10
2078413,5788.51
2079417,5550.00
2080420,5764.33
2081423,5861.51
2082426,5935.20
2083429,5740.22
2084432,5788.51
2085436,5812.77
2086438,5959.92
2087442,5812.77
2088445,5861.51
2089448,6034.54
2090451,5788.51
2091454,5812.77
2092457,5812.77
2093461,5740.22
2094464,5788.51
2095467,5886.00
2096470,5910.56
2097473,5740.22
2098477,5812.77
2099479,5886.00
2100483,5788.51
2101485,5812.77
2102489,6034.54
2103492,5644.52
2104495,5861.51
2105498,5910.56
2106501,5692.22
2107504,5861.51
2108508,5812.77
2109510,5597.12
2110514,5837.10
2111517,5812.77
2112520,5716.18
2113523,5837.10
2114526,5812.77
2115529,6009.59
2116533,5861.51
2117535,5788.51
2118539,5812.77
2119541,5788.51
2120545,5812.77
2121548,6034.54
2122551,5837.10
2123554,5788.51
2124557,5597.12
2125560,5764.33
2126564,5861.51
2127566,5668.34
2128570,5837.10
2129572,5764.33
2130576,5597.12
2131579,5788.51
2132582,5764.33
2133585,5668.34
2134589,5812.77
2135591,6059.57
2136595,5861.51
2137597,5861.51
2138601,5597.12
2139604,5837.10
2140607,5837.10
2141611,6034.54
2142613,5740.22
2143617,5716.18
2144620,5837.10
2145623,5788.51
2146626,5644.52
2147629,5837.10
2148632,5788.51
2149636,5788.51
2150638,5812.77
2151642,5910.56
2152644,5837.10
2153648,5886.00
2154651,5668.34
2155654,5812.77
2156657,5935.20
2157661,5764.33
2158663,5644.52
2159667,5812.77
2160669,5788.51
2161673,5668.34
2162676,5812.77
2163679,5620.78
2164682,5837.10
2165685,5812.77
2166688,5935.20
2167692,5837.10
2168694,5740.22
2169698,5837.10
2170700,5788.51
2171704,5644.52
2172707,5788.51
2173710,5692.22
2174713,5837.10
2175717,5764.33
2176719,5861.51
2177723,5788.51
2178725,5788.51
2179729,6084.68
2180732,5837.10
2181735,5812.77
2182738,5788.51
2183741,5812.77
2184744,5597.12
2185748,5788.51
2186750,5812.77
2187754,5644.52
2188756,5910.56
2189760,5788.51
2190764,5984.72
2191766,5837.10
2192770,5837.10
2193773,5550.00
2194776,5764.33
2195779,5812.77
2196782,5861.51
2197785,5861.51
2198789,5837.10
2199791,5668.34
2200795,5812.77
2201797,5812.77
2202801,5984.72
2203804,5788.51
2204807,5788.51
2205810,5886.00
2206813,6034.54
2207816,5812.77
2208820,5812.77
2209822,5526.55
2210826,5837.10
2211828,5740.22
2212832,5837.10
2213835,5886.00
2214838,5812.77
2215841,5573.52
2216844,5837.10
2217847,5861.51
2218851,5837.10
2219853,6034.54
2220857,5812.77
2221860,5788.51
2222863,5886.00
2223866,5740.22
2224869,5812.77
2225872,5716.18
2226876,5837.10
2227878,5812.77
2228882,5764.33
2229884,5788.51
2230888,5812.77
2231891,5837.10
2232894,5812.77
2233897,5935.20
2234900,5788.51
2235904,5740.22
2236907,5668.34
2237910,5788.51
2238913,5861.51
2239917,5812.77
2240919,6084.68
2241923,5740.22
2242925,5812.77
2243929,5764.33
2244932,5597.12
2245935,5984.72
2246938,5764.33
2247941,5837.10
2248944,6034.54
2249948,5910.56
2250950,5764.33
2251954,5716.18
2252956,5984.72
2253960,6009.59
2254963,5837.10
2255966,5837.10
2256969,5984.72
2257972,5668.34
2258975,5812.77
2259979,5740.22
2260981,5573.52
2261985,5716.18
2262988,5812.77
2263991,5812.77
2264994,5740.22
2265997,5740.22
2267000,5812.77
2268004,5861.51
2269006,5861.51
2270010,5740.22
2271012,5812.77
2272016,5788.51
2273019,5573.52
2274022,5788.51
2275025,5764.33
2276028,5812.77
2277031,5764.33
2278035,5668.34
2279037,5837.10
2280041,6034.54
2281043,5910.56
2282047,5764.33
2283051,5788.51
2284053,5984.72
2285057,5812.77
2286060,5886.00
2287063,5837.10
2288066,5984.72
2289069,5740.22
2290072,5692.22
2291076,5788.51
2292078,5764.33
2293082,5788.51
2294084,5764.33
2295088,5837.10
2296091,5812.77
2297094,5837.10
2298097,5837.10
2299100,5620.78
2300103,5861.51
2301107,5812.77
2302109,5837.10
2303113,5910.56
2304115,5837.10
2305119,5764.33
2306122,5812.77
2307125,6034.54
